 z[m] p[mb] tp[K] q[g/kg] u[m/s] v[m/s]
 0.,   28, 1017.80  day,levels,pres0
   10.000 -999.000  289.000    7.000    0.560    8.600
  150.000 -999.000  289.000    7.000    1.609   11.370
  650.000 -999.000  289.000    7.000    5.400   11.600
  935.000 -999.000  289.000    7.000    6.200   11.660
 1100.000 -999.000  289.000    7.000    5.775   11.670
 1175.000 -999.000  289.000    7.000    5.280   11.678
 1200.000 -999.000  289.000    7.000    5.000   11.700
 1285.000 -999.000  289.000    7.000    4.010   11.850
 1295.000 -999.000  297.500    2.000    3.632   11.880
 1305.000 -999.000  303.000    0.800    3.428   11.905
 1400.000 -999.000  304.000    0.400    2.328   11.990
 1600.000 -999.000  305.700    0.400    2.328   11.980
 1700.000 -999.000  306.250    0.400    2.328   11.980
 1900.000 -999.000  307.170    0.400    2.328   11.970
 2720.000 -999.000  311.270    0.400    2.328   11.967
 3000.000 -999.000  314.005    0.400    2.328   11.967
 4015.000 -999.000  322.869    0.261    2.328   11.967
 5400.000 -999.000  329.238    0.055    2.328   11.967
 7100.000 -999.000  336.035    0.420    2.328   11.967
 9285.000 -999.000  340.732    0.101    2.328   11.967
10670.000 -999.000  345.068    0.047    2.328   11.967
12365.000 -999.000  349.327    0.016    2.328   11.967
14550.000 -999.000  360.772    0.005    2.328   11.967
17635.000 -999.000  387.249    0.002    2.328   11.967
20345.000 -999.000  425.805    0.002    2.328   11.967
22900.000 -999.000  487.963    0.002    2.328   11.967
26785.000 -999.000  591.520    0.002    2.328   11.967
29865.000 -999.000  678.663    0.002    2.328   11.967
 1000.,   28, 1017.80  day,levels,pres0
   10.000 -999.000  289.000    7.000    0.560    8.600
  150.000 -999.000  289.000    7.000    1.609   11.370
  650.000 -999.000  289.000    7.000    5.400   11.600
  935.000 -999.000  289.000    7.000    6.200   11.660
 1100.000 -999.000  289.000    7.000    5.775   11.670
 1175.000 -999.000  289.000    7.000    5.280   11.678
 1200.000 -999.000  289.000    7.000    5.000   11.700
 1285.000 -999.000  289.000    7.000    4.010   11.850
 1295.000 -999.000  297.500    2.000    3.632   11.880
 1305.000 -999.000  303.000    0.800    3.428   11.905
 1400.000 -999.000  304.000    0.400    2.328   11.990
 1600.000 -999.000  305.700    0.400    2.328   11.980
 1700.000 -999.000  306.250    0.400    2.328   11.980
 1900.000 -999.000  307.170    0.400    2.328   11.970
 2720.000 -999.000  311.270    0.400    2.328   11.967
 3000.000 -999.000  314.005    0.400    2.328   11.967
 4015.000 -999.000  322.869    0.261    2.328   11.967
 5400.000 -999.000  329.238    0.055    2.328   11.967
 7100.000 -999.000  336.035    0.420    2.328   11.967
 9285.000 -999.000  340.732    0.101    2.328   11.967
10670.000 -999.000  345.068    0.047    2.328   11.967
12365.000 -999.000  349.327    0.016    2.328   11.967
14550.000 -999.000  360.772    0.005    2.328   11.967
17635.000 -999.000  387.249    0.002    2.328   11.967
20345.000 -999.000  425.805    0.002    2.328   11.967
22900.000 -999.000  487.963    0.002    2.328   11.967
26785.000 -999.000  591.520    0.002    2.328   11.967
29865.000 -999.000  678.663    0.002    2.328   11.967
